Folder: hyperparameter-stage-analysis/development/datasets/trainingDataset

Note: development/datasets/trainingDataset/ABTX.txt
26.19,329154,45.4,24.75251612903226,1.00420179797867,-0.05915886579056506,349.02,1018700032,521.03,338.6449032258065,1.0031496003802378,-0.04593222599356128,419.12,1564300032,516.18,399.54496774193547,1.00535104145822,-0.1831157132611978,3477.13,3508.01,3241.893569892472,1.0083010097614697
26.11,152691,45.4,24.851634408602152,1.0040043718809515,0.005342846013334901,340.17,1194899968,521.03,339.13425806451613,1.0014450382511244,-0.13383981793601496,415.21,1662409984,516.18,401.3377634408603,1.0044870936782333,-0.18343223200037828,3483.81,3508.01,3267.366430107527,1.0078574017517483
27.91,130369,45.4,25.06432258064516,1.0085583172738686,0.11202499215583961,352.26,1035249984,521.03,340.2827741935484,1.0033866119441515,-0.017283531292691556,419.47,1451280000,516.18,403.1848387096774,1.0046022962129986,-0.16388654803646374,3465.39,3508.01,3289.1156559139777,1.006656500356385
28.3,261250,45.4,25.293096774193547,1.009127483609912,0.25564726493193035,334.87,1177639936,521.03,340.2271612903226,0.9998365685616688,0.031836519204420766,396.09,1714249984,516.18,403.3733978494624,1.0004676741823637,-0.0987629516791324,3269.96,3508.01,3296.2695698924726,1.0021750265806653
27.75,189751,45.4,25.47217204301075,1.0070800056796492,-0.006542182100540028,343.83,1225040000,521.03,340.63243010752694,1.001191171262363,-0.019081752142207198,414.07,1720230016,516.18,404.57111827956993,1.0029692598383857,-0.19152381763836712,3509.44,3508.01,3317.1935698924735,1.0063477818049582
30.82,405674,45.4,25.847956989247315,1.0147527641381362,0.3019379507302997,382.66,1550889984,521.03,343.5564086021505,1.0085839698049317,0.10301913562069553,448.35,2102509952,516.18,407.9249892473118,1.0082899416597115,-0.04402760919712523,3585.15,3509.44,3341.454516129033,1.007313696269267
31.44,183092,45.4,26.24724731182796,1.015447655021507,0.4009008302486565,387.5,1006880000,521.03,346.6635913978495,1.0090441706744502,0.1228620124781139,450.77,1442530048,516.18,411.27217204301076,1.008205387960848,-0.005389538468490995,3557.54,3585.15,3362.4060215053764,1.0062701752411147
32.4,210807,45.4,26.689634408602146,1.016854609228863,0.3549353882993529,412.67,829950016,521.03,351.23492473118284,1.0131866554399336,0.15367921635205328,471.52,1136080000,516.18,415.76498924731175,1.0109241945108582,0.003732048700318291,3638.35,3585.15,3387.0209677419343,1.0073206347119072
34.22,325478,45.4,27.23240860215054,1.0203365166131109,0.443613664053776,420.66,1196850048,521.03,356.13262365591396,1.0139442253029922,0.18034244883985306,480.05,1722439936,516.18,420.580752688172,1.011582897948138,0.03625210333048745,3699.12,3638.35,3413.8196989247317,1.0079121834314075
34.25,307270,45.4,27.755419354838708,1.0192054533379344,0.49358627801641997,414.8,938830016,521.03,360.4453118279571,1.0121097812600564,0.24177038760158087,471.58,1389319936,516.18,424.6125376344086,1.00958623265679,0.07350749507791243,3663.46,3699.12,3436.663333333334,1.0066915175443498
33.14,634515,45.4,28.18122580645161,1.0153413805847855,0.2774899914083

Note: development/datasets/trainingDataset/ACIU.txt
6.91,2121351,16.47,7.122,0.9976262271772889,-0.1849899144761845,2985.5,394942016,3082.3,2901.0129032258064,1.00429795160505,-0.0836345200421107,1539.56,794862976,1592.61,1506.7349892473121,1.0035455377815545,0.005033937550317669,4455.48,4535.43,4352.819892473119,1.0032989294663386
6.77,1475933,16.28,7.097483870967741,0.9965576903914267,-0.19562872188572678,2819.4,472923008,3082.3,2901.856129032258,1.0002906659965263,-0.105808671792188,1485.0,987523968,1592.61,1508.0473548387097,1.0008709996122498,-0.004909555142142086,4357.05,4535.43,4359.396344086021,1.0015108485476907
6.45,2325525,16.28,7.053741935483871,0.99383697993837,-0.319582493906036,2771.3,434720000,3082.3,2898.9434408602156,0.9989962672019119,-0.06240802026628156,1480.1,924926016,1592.61,1508.6782795698925,1.0004183719623647,-0.002778424621505682,4391.36,4535.43,4367.078580645161,1.0017622248478422
6.18,947614,16.28,6.9954838709677425,0.9917408284781356,-0.3728770888711912,2788.9,412529984,3082.3,2896.679569892473,0.9992190703220236,-0.1231777014029809,1491.56,763875008,1592.61,1509.7309677419357,1.000697755238011,-0.02740684698743112,4471.37,4535.43,4378.959268817204,1.0027205116538773
6.03,1268739,16.28,6.931419354838709,0.9908420178917271,-0.30476517697563443,2801.2,350480000,3082.3,2894.760430107527,0.9993374690784259,-0.10381671426045136,1534.41,738278016,1592.61,1513.216666666667,1.0023088212398163,-0.019763972572825583,4544.9,4535.43,4394.383247311828,1.0035222932089045
6.44,2439103,16.28,6.8972473118279565,0.9950699789954424,-0.27340492410163897,2859.9,355209984,3082.3,2896.1382795698923,1.0004759804811598,-0.09039342909859482,1559.32,893368000,1592.61,1517.9461075268819,1.0031254221318042,0.003101008807849359,4605.38,4544.9,4412.482580645161,1.0041187425662985
7.33,3915707,16.28,6.923182795698926,1.0037602659000633,-0.046039407368227536,2782.0,579859968,3082.3,2891.927956989248,0.9985462287452415,-0.12462910669570215,1548.87,1305160960,1592.61,1521.5671182795697,1.002385467267074,-0.011754722019708286,4697.53,4605.38,4435.267913978494,1.0051638353051586
5.9,9858879,16.28,6.855870967741937,0.9902773290922193,-0.21477174427074885,2761.8,410630016,3082.3,2886.0227956989247,0.9979580538041927,-0.1355473199159305,1558.37,897025024,1592.61,1525.428322580645,1.0025376496736083,-0.017700131906094763,4682.85,4697.53,4455.883075268817,1.004648008122655
5.47,2104410,16.28,6.762602150537636,0.986395774126563,-0.3131441892022524,2794.7,414520000,3082.3,2882.0776344086016,0.998633011043363,-0.11247207876778087,1547.73,910998016,1592.61,1528.2952688172045,1.0018794368729889,-0.04930938330962986,4697.96,4697.53,4476.403440860216,1.0046052298152282
5.17,1338173,16.28,6.652795698924732,0.9837626923529467,-0.37938416740547876,2813.4,357540000,3082.3,2879.1789247311826,0.9989942291481632,-0.06934187135987901,1534.35,772281984,1592.61,1530.0680430107527,1.0011599683841985,-0.012941218267697785,4594.62,4697.96,4489.143182795699,1.0028459771563922
4.85,1464279,16.28,6.525763440860215,0.98090543227036

Note: readme.md
create an env file

```
DB_PASSWORD="YOUR_DB_PASSWORD"
DB_HOST="YOUR_DB_HOST"
DB_PORT=3306
DB_USER="DB_ROOT"
```

File: TGA.txt
7.58,712561,18.46,7.32789,0.999636,-0.316402,1068.59,154684992,1039.38,954.097,1.01027,0.049233,734.16,708367552,714.83,669.598,1.00798,0.0493738,1962.87,1949.44,1876.26,1.00393
6.39,1098311,18.46,6.99172,0.992481,-0.368312,998.26,119387000,1068.59,995.126,1.00256,0.0173564,700.15,708367552,734.16,695.731,1.00245,0.0399748,1955.06,1985.44,1921.45,1.00227
5.08,1318801,18.46,6.52191,0.982467,-0.26281,847.0,202256992,1068.59,989.425,0.990857,-0.132457,613.73,708367552,734.16,691.942,0.992923,-0.05955,1906.13,2010.4,1956.64,0.999199
3.33,1919098,18.46,5.30787,0.96816,-0.301776,786.85,286137984,1068.59,924.452,0.987584,-0.296697,591.53,708367552,734.16,658.397,0.991328,-0.241707,2075.37,2067.56,1993.37,1.00349
2.91,1261155,18.46,4.15082,0.967673,-0.34255,763.88,233690000,1068.59,837.393,0.98951,-0.444501,557.95,708367552,734.16,611.219,0.990696,-0.240882,1994.99,2088.77,2020.01,0.999779
3.55,2030208,18.46,3.45187,0.989733,-0.242478,795.05,226718000,1068.59,804.763,0.996101,-0.330917,559.23,708367552,734.16,584.054,0.994461,-0.247423,2061.02,2110.3,2054.11,1.00093
4.12,1048939,18.46,3.67905,1.00863,-0.0956606,825.96,180632992,1068.59,815.471,1.00085,-0.0821546,583.44,708367552,734.16,581.995,0.999399,-0.153491,2126.06,2122.73,2084.53,1.00187
3.2,941563,18.46,3.7928,0.992309,-0.0552463,738.15,245083008,1068.59,801.472,0.994866,-0.042018,531.86,708367552,734.16,568.543,0.995169,-0.135928,2126.64,2126.06,2095.1,1.00135
2.67,719140,18.46,3.43047,0.98361,0.0500834,636.61,235607008,1068.59,737.787,0.987935,-0.118393,460.95,708367552,734.16,528.351,0.988961,-0.171253,1961.05,2126.64,2063.27,0.996226
2.72,656975,18.46,3.03957,0.985209,-0.183116,713.67,257014000,1068.59,698.042,0.997647,-0.119013,514.21,708367552,734.16,504.513,0.998078,-0.120189,2099.2,2126.64,2038.91,1.00124
1.8,419624,15.58,2.41174,0.973202,-0.293356,586.12,161459008,1068.59,656.988,0.990104,-0.331903,448.44,708367552,734.16,480.513,0.993347,-0.184174,2043.94,2126.64,2037.9,0.999926
1.44,576450,15.18,1.83903,0.973321,-0.230093,497.55,436964992,1068.59,582.384,0.986418,-0.259076,428.49,708367552,734.16,450.778,0.994698,-0.0825485,1948.05,2126.64,1978.69,0.998324
1.92,553265,14.38,1.68413,1.0005,-0.307252,644.79,340800992,1068.59,572.899,1.00534,-0.0609569,499.96,708367552,734.16,454.714,1.00563,0.0113953,2091.58,2126.64,2006.63,1.00277
1.65,463595,13.66,1.69535,0.998809,-0.0811273,618.45,324232992,1068.59,587.943,1.00399,-0.147869,500.82,708367552,734.16,472.184,1.00547,0.0309657,2071.22,2126.64,2036.31,1.00166
1.92,764234,13.66,1.74441,1.00995,0.211385,642.8,275374016,1068.59,611.298,1.00626,0.128071,508.16,708367552,734.16,493.688,1.00448,0.0803129,2184.05,2182.87,2097.04,1.00436
2.04,343776,13.66,1.85656,1.00802,0.00401564,677.02,270831008,1068.59,638.573,1.00552,0.179924,520.28,708367552,734.16,505.628,1.00307,0.0613378,2153.74,2184.05,2137.31,1.00135
1.89,854742,13.66,1.8757,1.00149,-0.224975,721.38,389907008,1068.59,655.51,1.00809,0.286889,546.74,708367552,734.16,513.848,1.00498,0.0557782,2191.95,2213.35,2153.9,1.00176
1.75,540385,13.66,1.82415,0.996821,-0.190709,715.34,908339968,1068.59,690.608,1.00435,0.209734,544.42,708367552,734.16,533.23,1.00258,-0.0336192,2294.69,2276.98,2209.29,1.00328
1.5,465093,13.66,1.73353,0.988394,-0.156127,638.68,901640000,1068.59,688.205,0.995828,0.0195454,502.92,708367552,734.16,530.146,0.997071,-0.0968889,2343.98,2383.12,2282.46,1.00319
1.595,310752,11.97,1.6156,0.996207,-0.179537,643.54,1041489984,1068.59,671.572,0.9964,-0.0442253,498.15,708367552,734.16,518.173,0.996605,-0.148517,2381.73,2399.29,2338.12,1.00261
1.32,157602,11.97,1.47584,0.989118,-0.0619925,604.93,949129984,1068.59,634.363,0.994187,-0.229162,481.78,708367552,734.16,497.443,0.995796,-0.233639,2459.27,2439.07,2392.48,1.00282
1.25,128488,11.97,1.35584,0.990526,-0.118005,577.43,826019968,1068.59,605.259,0.994666,-0.242078,471.43,708367552,734.16,481.674,0.99706,-0.180614,2461.43,2476.83,2430.83,1.00151
1.48,1080014,11.45,1.37822,1.00418,-0.0692977,674.96,1226189952,1068.59,616.623,1.00613,-0.0211991,508.14,708367552,734.16,487.893,1.00267,-0.116003,2587.84,2581.07,2491.77,1.00358
1.439,412831,9.28,1.39874,1.00331,-0.19275,715.77,544150016,1068.59,648.396,1.00909,0.165932,533.41,708367552,734.16,500.797,1.00554,0.0228745,2673.61,2683.34,2569.07,1.00395
1.32,185220,9.28,1.41049,0.996873,-0.159903,692.63,1134829952,1068.59,687.394,1.00323,0.176232,505.59,708367552,734.16,519.48,0.999835,-0.0762106,2747.3,2872.87,2669.62,1.00359
1.609,524962,9.28,1.39419,1.00917,0.0477382,775.31,1065350016,1068.59,705.233,1.00808,0.29011,541.48,708367552,734.16,517.21,1.00337,0.0214905,2670.14,2872.87,2688.8,1.00028
2.24,1853487,9.28,1.73494,1.02584,0.326446,785.91,1113660032,1068.59,753.817,1.00495,0.243717,547.51,708367552,734.16,534.963,1.00234,0.0252488,2779.66,2872.87,2710.8,1.00192
3.19,1726829,9.28,2.44323,1.03264,1.09247,824.03,864689984,1068.59,791.894,1.00501,0.0256365,554.18,708367552,734.16,547.165,1.00183,-0.0480707,2833.28,2872.87,2747.57,1.00235
3.32,3544968,9.28,2.99753,1.01766,1.32822,861.16,870569984,1068.59,815.039,1.00565,0.217789,571.36,708367552,734.16,552.898,1.00325,0.102232,2885.57,2929.67,2821.66,1.00268
2.16,1011764,9.02,2.85372,0.985107,0.303208,671.94,1072040000,1068.59,772.969,0.989751,-0.229567,486.42,708367552,734.16,529.987,0.993075,-0.14355,2760.17,2929.67,2794.33,0.999353
1.86,331438,7.82,2.36258,0.976672,-0.118716,648.53,869529984,1068.59,697.456,0.990964,-0.228278,464.69,708367552,734.16,489.695,0.993313,-0.152751,2664.76,2929.67,2693.43,0.997989
1.98,752394,7.82,2.07824,0.98717,-0.211592,640.2,1055910016,1068.59,657.106,0.994144,-0.29592,484.86,708367552,734.16,477.777,0.998656,-0.0901294,2800.71,2929.67,2707.97,1.00156
1.73,550679,7.58,1.90908,0.990715,-0.243309,640.65,956390016,1068.59,649.622,0.998357,-0.328626,468.23,708367552,734.16,477.871,0.998652,-0.14973,2859.53,2945.64,2792.3,1.00283
1.465,1064741,6.78,1.69006,0.987932,-0.189216,629.67,1025400000,1037.82,631.715,0.99969,-0.120743,476.89,650408896,727.81,471.271,1.00116,-0.113193,3013.77,2990.41,2868.18,1.00521
1.4,484883,6.29,1.52333,0.988508,-0.136702,559.51,975459968,985.14,597.721,0.993595,-0.248769,433.24,577297664,684.82,454.063,0.995373,-0.165987,2978.71,3025.86,2915.01,1.00222
1.17,685555,4.64,1.37858,0.984844,-0.267748,599.93,865120000,903.48,583.948,0.999749,-0.167252,437.36,843580032,645.6,441.847,0.99761,-0.186276,3066.91,3025.86,2958.59,1.00296
1.43,543564,4.64,1.30232,1.00427,-0.137686,628.46,495270016,867.41,590.2,1.00451,0.0286862,454.96,420100000,604.75,440.096,1.00178,-0.124403,3240.02,3221.22,3057.89,1.00519
1.22,377602,4.64,1.29159,0.995162,-0.0392699,554.68,719310016,867.41,588.468,0.996755,-0.209046,405.93,670529984,604.75,433.038,0.995563,-0.22341,3337.75,3380.16,3185.28,1.00499
0.4375,595176,4.64,0.955632,0.955754,-0.2133,310.43,1455430016,867.41,464.591,0.970696,-0.363756,260.17,1785549952,604.75,351.636,0.976099,-0.385447,2874.56,3380.16,2990.31,0.996335
0.6,1379260,4.05,0.720735,0.971904,-0.158596,401.57,1123219968,861.16,406.572,0.989251,-0.256074,299.28,1833100032,573.85,310.609,0.988881,-0.295117,3041.31,3380.16,2954.71,1.00029
0.6,813367,4.05,0.59468,0.985345,-0.168429,375.71,813190016,861.16,373.534,0.994333,-0.349867,280.59,1113129984,573.85,284.824,0.993321,-0.408099,3351.28,3380.16,3039.4,1.00706
0.395,896995,4.05,0.52291,0.983058,-0.319896,296.4,880489984,861.16,355.494,0.990122,-0.219769,222.55,1330669952,573.85,268.155,0.988746,-0.428085,3348.44,3508.01,3215.2,1.00601
0.53,2071777,4.05,0.487917,1.00171,-0.224582,403.95,549969984,861.16,342.877,1.00936,0.0372763,289.99,1032150016,573.85,255.584,1.00607,-0.22027,3638.35,3585.15,3387.02,1.00732
1.1115,2505289,4.05,0.712871,1.04716,0.764429,446.92,449129984,861.16,376.856,1.01462,0.125477,317.54,924000000,573.85,274.289,1.01185,-0.131525,3841.47,3824.68,3581.33,1.0071
1.68,2592656,4.05,1.07995,1.05426,1.46287,540.2,598710016,861.16,445.491,1.02121,0.423581,370.11,1277709952,573.85,314.397,1.01762,0.221702,3913.1,3943.34,3744.86,1.00506
1.57,1426169,4.05,1.37922,1.0218,1.52674,593.06,493220000,861.16,510.398,1.01787,0.760391,401.29,1101549952,573.85,353.152,1.01516,0.555973,4173.85,4232.6,3959.54,1.00595
1.87,1227745,4.05,1.67337,1.01534,0.59378,601.42,355329984,861.16,568.356,1.00871,0.136134,399.42,699204736,573.85,384.056,1.0066,0.110937,4369.55,4352.34,4130.67,1.00584
1.86,687612,4.05,1.73056,1.0077,0.248705,552.5,463280000,861.16,568.244,0.999236,-0.0725976,363.88,839729984,573.85,381.359,0.997533,-0.0336417,4535.43,4509.37,4307.74,1.0054
2.67,1767421,4.05,2.06415,1.0257,0.428829,686.24,424430016,861.16,604.824,1.01088,0.0385241,436.19,850320000,573.85,394.084,1.00798,0.00309113,4605.38,4544.9,4412.48,1.00412
2.87,2043664,4.05,2.46875,1.01788,0.563011,659.01,327329984,861.16,635.736,1.00445,-0.0348618,418.37,601980032,573.85,407.754,1.00293,-0.0508468,4725.78,4712.02,4545.35,1.00386
3.15,2373519,4.05,2.87477,1.01398,0.356497,812.33,531460000,861.16,709.028,1.01447,0.53029,514.82,990190016,573.85,450.877,1.01363,0.416394,4348.87,4766.18,4551.74,0.997373
4.47,3432357,4.06,3.40854,1.02739,0.650737,940.0,355820000,942.89,809.103,1.01581,0.607876,607.63,694819968,605.71,518.202,1.01681,0.654781,4392.59,4766.18,4496.91,0.998132
3.79,7694818,5.07,4.01338,1.00243,0.0120532,879.62,860190016,1093.36,919.243,1.00256,0.553048,555.65,1643440000,676.93,577.176,1.00285,0.445522,3674.84,4766.18,4240.49,0.989056
3.48,6353285,5.07,4.00088,0.996887,-0.0462945,852.81,705129984,1093.36,919.357,1.00012,0.415573,547.02,1236310016,676.93,578,1.00143,0.545788,3911.74,4766.18,4211.05,0.993058